# TELESCOPE = Liverpool Telescope
# INSTRUMENT = SPRAT
# PROPOSAL = PL23A20
# OBJECT = 2023gfx
# RA = 12:20:19.307
# DEC = -10:26:6.36
# DATE-OBS = 2023-05-01T00:38:43.709
# MJD-OBS = 60065.026895
# EXPTIME-OBS = 1800.0s
# AIRMASS-OBS = 1.442925
# SEEING-OBS = 1.086781
# wl fl
# [A] [Normalised]
4020.000000 1.38348
4029.200000 1.67654
4038.400000 1.77305
4047.600000 1.70324
4056.800000 1.49947
4066.000000 1.54703
4075.200000 1.56129
4084.400000 1.04367
4093.600000 1.64539
4102.800000 1.56488
4112.000000 1.51914
4121.200000 1.48675
4130.400000 1.65866
4139.600000 1.45238
4148.800000 1.68943
4158.000000 1.73307
4167.200000 1.52767
4176.400000 1.53821
4185.600000 1.5598
4194.800000 1.7425
4204.000000 1.86149
4213.200000 1.61379
4222.400000 1.9164
4231.600000 1.58479
4240.800000 2.06363
4250.000000 1.77611
4259.200000 1.56412
4268.400000 1.7099
4277.600000 1.57813
4286.800000 1.64355
4296.000000 1.67109
4305.200000 1.56934
4314.400000 1.46576
4323.600000 1.5285
4332.800000 1.32511
4342.000000 1.45441
4351.200000 1.47053
4360.400000 1.22502
4369.600000 1.44751
4378.800000 1.37654
4388.000000 1.39943
4397.200000 1.05393
4406.400000 1.13698
4415.600000 1.32287
4424.800000 0.855919
4434.000000 1.24574
4443.200000 0.754769
4452.400000 1.01025
4461.600000 0.861847
4470.800000 0.9176
4480.000000 1.01489
4489.200000 1.02026
4498.400000 0.732681
4507.600000 1.07328
4516.800000 0.955731
4526.000000 1.17578
4535.200000 1.13334
4544.400000 1.12587
4553.600000 1.31753
4562.800000 1.43925
4572.000000 1.43902
4581.200000 1.27295
4590.400000 1.04417
4599.600000 1.08672
4608.800000 0.982174
4618.000000 1.00519
4627.200000 0.987635
4636.400000 1.01696
4645.600000 1.14115
4654.800000 1.34625
4664.000000 1.41792
4673.200000 1.10531
4682.400000 1.43351
4691.600000 1.34395
4700.800000 1.39923
4710.000000 1.42713
4719.200000 1.52103
4728.400000 1.499818
4737.600000 1.48388
4746.800000 1.37567
4756.000000 1.34901
4765.200000 1.48839
4774.400000 1.44615
4783.600000 1.52729
4792.800000 1.53776
4802.000000 1.43769
4811.200000 1.33571
4820.400000 1.43509
4829.600000 1.48607
4838.800000 1.39116
4848.000000 1.29592
4857.200000 1.21376
4866.400000 1.04482
4875.600000 1.24515
4884.800000 1.00682
4894.000000 1.15097
4903.200000 1.30615
4912.400000 1.24444
4921.600000 1.31488
4930.800000 1.2187
4940.000000 1.30213
4949.200000 1.32156
4958.400000 1.14394
4967.600000 1.11873
4976.800000 1.07997
4986.000000 1.30342
4995.200000 1.16473
5004.400000 1.16607
5013.600000 0.984833
5022.800000 1.05294
5032.000000 1.06868
5041.200000 1.0786
5050.400000 1.08916
5059.600000 0.93839
5068.800000 1.13908
5078.000000 1.01673
5087.200000 1.1193
5096.400000 1.0271
5105.600000 0.910903
5114.800000 0.898293
5124.000000 0.962878
5133.200000 0.914393
5142.400000 1.02253
5151.600000 0.92014
5160.800000 0.911502
5170.000000 0.844091
5179.200000 0.965951
5188.400000 0.986552
5197.600000 0.954768
5206.800000 0.869995
5216.000000 0.978009
5225.200000 0.907617
5234.400000 1.1252
5243.600000 1.19367
5252.800000 1.08555
5262.000000 1.06244
5271.200000 1.02255
5280.400000 1.03994
5289.600000 1.18011
5298.800000 1.09095
5308.000000 1.13051
5317.200000 0.990225
5326.400000 1.15127
5335.600000 1.22718
5344.800000 1.15582
5354.000000 1.07653
5363.200000 1.09995
5372.400000 1.18885
5381.600000 1.2811
5390.800000 1.18944
5400.000000 1.18128
5409.200000 1.24394
5418.400000 1.10032
5427.600000 1.13326
5436.800000 1.16586
5446.000000 1.26521
5455.200000 1.1806
5464.400000 1.01139
5473.600000 1.02933
5482.800000 0.850994
5492.000000 0.950302
5501.200000 1.13012
5510.400000 0.899355
5519.600000 0.853472
5528.800000 0.917394
5538.000000 0.920646
5547.200000 1.14689
5556.400000 0.796159
5565.600000 0.765803
5574.800000 0.97689
5584.000000 0.991207
5593.200000 1.04723
5602.400000 0.957668
5611.600000 0.884923
5620.800000 0.979471
5630.000000 0.900642
5639.200000 0.983823
5648.400000 0.993855
5657.600000 1.02327
5666.800000 0.92198
5676.000000 0.975101
5685.200000 1.08028
5694.400000 0.958057
5703.600000 0.942061
5712.800000 0.900306
5722.000000 1.05241
5731.200000 1.03444
5740.400000 0.875066
5749.600000 1.12133
5758.800000 1.09036
5768.000000 0.933081
5777.200000 0.97579
5786.400000 1.01197
5795.600000 0.921935
5804.800000 0.86666
5814.000000 0.928345
5823.200000 0.882399
5832.400000 0.943143
5841.600000 1.16574
5850.800000 1.0527
5860.000000 0.967864
5869.200000 0.8304045
5878.400000 0.7494704
5887.600000 0.6817
5896.800000 0.7475543
5906.000000 0.8524399
5915.200000 1.13139
5924.400000 0.986343
5933.600000 1.11296
5942.800000 1.074011
5952.000000 1.03744
5961.200000 1.15015
5970.400000 1.19043
5979.600000 1.16845
5988.800000 0.946184
5998.000000 0.890943
6007.200000 1.02897
6016.400000 1.06787
6025.600000 1.02596
6034.800000 0.960101
6044.000000 0.943024
6053.200000 0.944973
6062.400000 0.989073
6071.600000 1.00249
6080.800000 0.878691
6090.000000 1.04428
6099.200000 1.02634
6108.400000 1.00486
6117.600000 1.04785
6126.800000 0.935809
6136.000000 1.12589
6145.200000 0.936232
6154.400000 1.00554
6163.600000 1.10535
6172.800000 0.984319
6182.000000 0.953626
6191.200000 1.07295
6200.400000 0.90813
6209.600000 1.36863
6218.800000 1.08039
6228.000000 0.919203
6237.200000 1.16262
6246.400000 1.09063
6255.600000 0.930932
6264.800000 1.03032
6274.000000 1.12727
6283.200000 0.935688
6292.400000 0.867447
6301.600000 0.831484
6310.800000 0.942114
6320.000000 0.774015
6329.200000 0.879077
6338.400000 0.782256
6347.600000 0.812856
6356.800000 0.65711
6366.000000 0.706439
6375.200000 0.661053
6384.400000 0.596985
6393.600000 0.581804
6402.800000 0.569249
6412.000000 0.640743
6421.200000 0.526889
6430.400000 0.630579
6439.600000 0.60657
6448.800000 0.601327
6458.000000 0.706396
6467.200000 0.720766
6476.400000 0.832918
6485.600000 0.770636
6494.800000 0.761543
6504.000000 0.872894
6513.200000 0.972244
6522.400000 0.726515
6531.600000 0.706351
6540.800000 0.783453
6550.000000 0.816936
6559.200000 0.786027
6568.400000 0.9171
6577.600000 0.816541
6586.800000 0.816682
6596.000000 0.819225
6605.200000 0.796682
6614.400000 0.778391
6623.600000 0.840539
6632.800000 0.805813
6642.000000 0.621899
6651.200000 0.651969
6660.400000 0.714392
6669.600000 0.80607
6678.800000 0.909567
6688.000000 0.713084
6697.200000 0.804094
6706.400000 0.810579
6715.600000 0.913018
6724.800000 0.710364
6734.000000 0.594803
6743.200000 0.784585
6752.400000 0.87424
6761.600000 0.69699
6770.800000 0.713963
6780.000000 0.673467
6789.200000 0.804871
6798.400000 0.732226
6807.600000 0.660704
6816.800000 0.598209
6826.000000 0.625866
6835.200000 0.750343
6844.400000 0.710543
6853.600000 0.737059
6862.800000 0.753712
6872.000000 0.657002
6881.200000 0.383393
6890.400000 0.523505
6899.600000 0.620936
6908.800000 0.589228
6918.000000 0.54408
6927.200000 0.663487
6936.400000 0.504872
6945.600000 0.556375
6954.800000 0.667328
6964.000000 0.492542
6973.200000 0.705708
6982.400000 0.500985
6991.600000 0.562601
7000.800000 0.532525
7010.000000 0.494938
7019.200000 0.513913
7028.400000 0.615292
7037.600000 0.563193
7046.800000 0.576257
7056.000000 0.556582
7065.200000 0.481139
7074.400000 0.506376
7083.600000 0.479273
7092.800000 0.532078
7102.000000 0.534794
7111.200000 0.550667
7120.400000 0.404346
7129.600000 0.522895
7138.800000 0.605698
7148.000000 0.394258
7157.200000 0.314876
7166.400000 0.590677
7175.600000 0.383679
7184.800000 0.601603
7194.000000 0.431315
7203.200000 0.449921
7212.400000 0.407147
7221.600000 0.562309
7230.800000 0.47032
7240.000000 0.499785
7249.200000 0.649406
7258.400000 0.495046
7267.600000 0.557046
7276.800000 0.57011
7286.000000 0.513623
7295.200000 0.530912
7304.400000 0.471662
7313.600000 0.698742
7322.800000 0.554442
7332.000000 0.490023
7341.200000 0.373863
7350.400000 0.580776
7359.600000 0.348665
7368.800000 0.350946
7378.000000 0.532164
7387.200000 0.522931
7396.400000 0.396474
7405.600000 0.405153
7414.800000 0.568735
7424.000000 0.558248
7433.200000 0.337116
7442.400000 0.40253
7451.600000 0.407333
7460.800000 0.520629
7470.000000 0.369056
7479.200000 0.429434
7488.400000 0.334706
7497.600000 0.493343
7506.800000 0.665963
7516.000000 0.445875
7525.200000 0.577072
7534.400000 0.367636
7543.600000 0.311151
7552.800000 0.591143
7562.000000 0.606455
7571.200000 0.574113
7580.400000 0.406681
7589.600000 0.330422
7598.800000 0.214189
7608.000000 0.301775
7617.200000 0.193918
7626.400000 0.240928
7635.600000 0.314761
7644.800000 0.373678
7654.000000 0.380086
7663.200000 0.446057
7672.400000 0.435719
7681.600000 0.371012
7690.800000 0.311933
7700.000000 0.253181
7709.200000 0.432711
7718.400000 0.189142
7727.600000 0.120151
7736.800000 0.557439
7746.000000 0.355969
7755.200000 0.0705644
7764.400000 0.546907
7773.600000 0.516556
7782.800000 0.303431
7792.000000 0.524997
7801.200000 0.557295
7810.400000 0.549131
7819.600000 0.389916
7828.800000 0.469189
7838.000000 0.328392
7847.200000 0.472286
7856.400000 0.343788
7865.600000 0.368811
7874.800000 0.169765
7884.000000 0.377696
7893.200000 0.334989
7902.400000 -0.00763407
7911.600000 0.251029
7920.800000 0.312952
7930.000000 0.100713
7939.200000 0.110955
7948.400000 0.282974
7957.600000 0.664578
7966.800000 0.351297
7976.000000 0.0482494
7985.200000 0.569517
7994.400000 0.685991
