# TELESCOPE = Liverpool Telescope
# INSTRUMENT = SPRAT
# PROPOSAL = PL22A20b
# OBJECT = 2022eaw
# RA = 14:21:24.352
# DEC = 61:38:21.52
# DATE-OBS = 2022-03-30T04:42:59.496
# MJD-OBS = 59668.196522
# EXPTIME-OBS = 1800.0s
# AIRMASS-OBS = 1.246098
# SEEING-OBS = 1.001509
# wl fl
# [A] [Normalised]
4020.000000 0.563188
4029.200000 0.226421
4038.400000 0.373524
4047.600000 0.375276
4056.800000 0.371401
4066.000000 0.487132
4075.200000 0.288506
4084.400000 0.347812
4093.600000 0.264
4102.800000 0.286677
4112.000000 0.168484
4121.200000 0.506354
4130.400000 0.220324
4139.600000 0.411034
4148.800000 0.595747
4158.000000 0.427529
4167.200000 0.527903
4176.400000 0.284047
4185.600000 0.567389
4194.800000 0.558264
4204.000000 0.540005
4213.200000 0.590527
4222.400000 0.305141
4231.600000 0.529068
4240.800000 0.504304
4250.000000 0.517735
4259.200000 0.484089
4268.400000 0.560317
4277.600000 0.540091
4286.800000 0.517316
4296.000000 0.538818
4305.200000 0.48165
4314.400000 0.579942
4323.600000 0.566983
4332.800000 0.499881
4342.000000 0.579187
4351.200000 0.482784
4360.400000 0.557543
4369.600000 0.603424
4378.800000 0.565016
4388.000000 0.549499
4397.200000 0.619678
4406.400000 0.526529
4415.600000 0.557688
4424.800000 0.584183
4434.000000 0.557776
4443.200000 0.560968
4452.400000 0.528434
4461.600000 0.481147
4470.800000 0.544281
4480.000000 0.565982
4489.200000 0.646824
4498.400000 0.588024
4507.600000 0.618546
4516.800000 0.649068
4526.000000 0.602835
4535.200000 0.642006
4544.400000 0.613391
4553.600000 0.579198
4562.800000 0.651627
4572.000000 0.614214
4581.200000 0.688541
4590.400000 0.784783
4599.600000 0.710472
4608.800000 0.720926
4618.000000 0.671022
4627.200000 0.685837
4636.400000 0.646179
4645.600000 0.716449
4654.800000 0.708459
4664.000000 0.810339
4673.200000 0.890398
4682.400000 0.762821
4691.600000 0.766904
4700.800000 0.775065
4710.000000 0.808457
4719.200000 0.857512
4728.400000 0.75212
4737.600000 0.936421
4746.800000 0.886362
4756.000000 0.876665
4765.200000 0.867883
4774.400000 0.966543
4783.600000 0.931404
4792.800000 0.993342
4802.000000 0.972133
4811.200000 0.916046
4820.400000 0.869687
4829.600000 0.942377
4838.800000 0.909522
4848.000000 0.853418
4857.200000 0.885682
4866.400000 0.8234
4875.600000 0.827019
4884.800000 0.837769
4894.000000 0.841985
4903.200000 0.802069
4912.400000 0.882085
4921.600000 0.88261
4930.800000 0.84301
4940.000000 0.824146
4949.200000 0.856003
4958.400000 0.832309
4967.600000 0.881741
4976.800000 0.925119
4986.000000 0.925452
4995.200000 0.909476
5004.400000 0.927029
5013.600000 0.898337
5022.800000 0.874284
5032.000000 0.837653
5041.200000 0.801022
5050.400000 0.801979
5059.600000 0.874222
5068.800000 0.899584
5078.000000 0.910069
5087.200000 0.991956
5096.400000 0.908371
5105.600000 0.959207
5114.800000 0.964293
5124.000000 0.976073
5133.200000 1.00463
5142.400000 0.97685
5151.600000 0.943393
5160.800000 0.895984
5170.000000 0.747723
5179.200000 0.915216
5188.400000 0.85591
5197.600000 0.847171
5206.800000 0.860998
5216.000000 0.866627
5225.200000 0.843392
5234.400000 0.866232
5243.600000 0.890547
5252.800000 0.890221
5262.000000 0.837001
5271.200000 0.860624
5280.400000 0.843517
5289.600000 0.806594
5298.800000 0.86637
5308.000000 0.819645
5317.200000 0.842866
5326.400000 0.840344
5335.600000 0.788713
5344.800000 0.832888
5354.000000 0.740203
5363.200000 0.758186
5372.400000 0.732964
5381.600000 0.84112
5390.800000 0.84142
5400.000000 0.926247
5409.200000 0.928453
5418.400000 0.922351
5427.600000 0.981967
5436.800000 1.00439
5446.000000 1.00195
5455.200000 0.98481
5464.400000 0.969317
5473.600000 1.01174
5482.800000 1.07392
5492.000000 1.08749
5501.200000 1.11328
5510.400000 1.07551
5519.600000 1.06743
5528.800000 1.05247
5538.000000 1.09709
5547.200000 1.09018
5556.400000 1.09785
5565.600000 1.02587
5574.800000 1.16858
5584.000000 1.13621
5593.200000 1.1128
5602.400000 1.07213
5611.600000 1.06295
5620.800000 1.15453
5630.000000 1.15496
5639.200000 1.20892
5648.400000 1.11269
5657.600000 1.14076
5666.800000 1.15652
5676.000000 1.14853
5685.200000 1.13322
5694.400000 1.17247
5703.600000 1.13993
5712.800000 1.12359
5722.000000 1.12353
5731.200000 1.13398
5740.400000 1.15559
5749.600000 1.16016
5758.800000 1.10937
5768.000000 1.17678
5777.200000 1.1211
5786.400000 1.11612
5795.600000 1.10312
5804.800000 1.07115
5814.000000 1.13071
5823.200000 1.11877
5832.400000 1.09216
5841.600000 1.08294
5850.800000 1.09196
5860.000000 1.07725
5869.200000 1.09279
5878.400000 1.06428
5887.600000 1.02228
5896.800000 1.02358
5906.000000 1.11757
5915.200000 1.0027
5924.400000 1.03732
5933.600000 1.05011
5942.800000 0.952674
5952.000000 1.12053
5961.200000 1.07706
5970.400000 1.06457
5979.600000 1.09199
5988.800000 1.13841
5998.000000 1.16368
6007.200000 1.18045
6016.400000 1.19895
6025.600000 1.14799
6034.800000 1.15313
6044.000000 1.15084
6053.200000 1.18051
6062.400000 1.16074
6071.600000 1.13542
6080.800000 1.11169
6090.000000 1.12591
6099.200000 1.10151
6108.400000 1.00647
6117.600000 1.07307
6126.800000 1.13789
6136.000000 1.13298
6145.200000 1.12897
6154.400000 1.12408
6163.600000 1.13116
6172.800000 1.13897
6182.000000 1.07498
6191.200000 1.14123
6200.400000 1.09334
6209.600000 1.11879
6218.800000 1.06051
6228.000000 1.14017
6237.200000 1.07463
6246.400000 1.11466
6255.600000 1.09371
6264.800000 1.15467
6274.000000 1.09601
6283.200000 1.06597
6292.400000 1.08488
6301.600000 1.10215
6310.800000 1.0624
6320.000000 1.16088
6329.200000 1.06491
6338.400000 1.01059
6347.600000 1.16661
6356.800000 1.06595
6366.000000 1.0441
6375.200000 1.04223
6384.400000 0.993281
6393.600000 0.966698
6402.800000 1.07133
6412.000000 1.03346
6421.200000 1.0427
6430.400000 1.05424
6439.600000 1.03931
6448.800000 1.03059
6458.000000 1.00521
6467.200000 1.00541
6476.400000 0.986508
6485.600000 0.985023
6494.800000 1.06102
6504.000000 1.04327
6513.200000 1.06775
6522.400000 1.09638
6531.600000 1.1154
6540.800000 1.11959
6550.000000 1.13796
6559.200000 1.0703
6568.400000 1.1504
6577.600000 1.158
6586.800000 1.14255
6596.000000 1.08543
6605.200000 1.09762
6614.400000 1.18621
6623.600000 1.17881
6632.800000 1.18365
6642.000000 1.22081
6651.200000 1.19437
6660.400000 1.18276
6669.600000 1.20848
6678.800000 1.19606
6688.000000 1.1914
6697.200000 1.19981
6706.400000 1.25012
6715.600000 1.22473
6724.800000 1.21325
6734.000000 1.16387
6743.200000 1.17108
6752.400000 1.22545
6761.600000 1.25763
6770.800000 1.21571
6780.000000 1.22788
6789.200000 1.24225
6798.400000 1.16642
6807.600000 1.13746
6816.800000 1.16063
6826.000000 1.20099
6835.200000 1.16345
6844.400000 1.19679
6853.600000 1.19092
6862.800000 1.05274
6872.000000 0.961424
6881.200000 0.935462
6890.400000 1.00598
6899.600000 1.04442
6908.800000 1.04654
6918.000000 1.05414
6927.200000 1.08658
6936.400000 1.05455
6945.600000 1.08351
6954.800000 1.12521
6964.000000 1.09545
6973.200000 1.05373
6982.400000 1.10644
6991.600000 1.10142
7000.800000 1.09482
7010.000000 1.12859
7019.200000 1.08706
7028.400000 1.10433
7037.600000 1.08837
7046.800000 1.06614
7056.000000 1.10545
7065.200000 1.0624
7074.400000 1.0981
7083.600000 1.09596
7092.800000 0.968279
7102.000000 1.02587
7111.200000 1.06813
7120.400000 1.07449
7129.600000 1.07952
7138.800000 1.10519
7148.000000 1.07019
7157.200000 1.12301
7166.400000 0.988407
7175.600000 1.08749
7184.800000 1.05237
7194.000000 1.03235
7203.200000 1.0597
7212.400000 1.15946
7221.600000 1.17031
7230.800000 1.05744
7240.000000 1.23546
7249.200000 1.05403
7258.400000 1.15291
7267.600000 1.10572
7276.800000 1.1432
7286.000000 1.11636
7295.200000 1.15988
7304.400000 1.20399
7313.600000 1.09911
7322.800000 1.05292
7332.000000 1.08031
7341.200000 1.08341
7350.400000 1.09353
7359.600000 1.02839
7368.800000 1.03001
7378.000000 1.0227
7387.200000 0.994509
7396.400000 0.966878
7405.600000 0.96587
7414.800000 1.01762
7424.000000 0.977885
7433.200000 1.00845
7442.400000 1.02862
7451.600000 1.07276
7460.800000 0.974498
7470.000000 0.987098
7479.200000 1.1092
7488.400000 0.981401
7497.600000 1.14406
7506.800000 1.07352
7516.000000 1.0453
7525.200000 1.10352
7534.400000 1.0982
7543.600000 1.12033
7552.800000 1.00241
7562.000000 0.990441
7571.200000 0.608261
7580.400000 1.04673
7589.600000 0.863894
7598.800000 0.514255
7608.000000 0.484644
7617.200000 0.558532
7626.400000 0.692455
7635.600000 0.647674
7644.800000 0.843606
7654.000000 0.909475
7663.200000 0.924177
7672.400000 1.22247
7681.600000 1.13144
7690.800000 1.17188
7700.000000 1.21944
7709.200000 1.16507
7718.400000 1.12858
7727.600000 1.10465
7736.800000 0.578784
7746.000000 1.02968
7755.200000 1.14092
7764.400000 1.11945
7773.600000 1.00218
7782.800000 1.07306
7792.000000 1.04215
7801.200000 1.07929
7810.400000 1.11215
7819.600000 1.19642
7828.800000 1.25835
7838.000000 1.16697
7847.200000 1.3573
7856.400000 0.992144
7865.600000 1.01074
7874.800000 1.17058
7884.000000 1.23854
7893.200000 1.44197
7902.400000 1.17049
7911.600000 0.969729
7920.800000 1.01761
7930.000000 1.32693
7939.200000 1.12067
7948.400000 1.15799
7957.600000 1.16162
7966.800000 1.21077
7976.000000 0.719348
7985.200000 1.07522
7994.400000 1.17971
