wavelength spec_sum spec_optimal
3813.87 -3.30714 -1.72528
3816.76 6.21852 10.1991
3819.65 4.14976 7.6205
3822.53 5.65473 5.24193
3825.42 2.03188 3.0055
3828.31 5.0699 7.97195
3831.2 2.74958 4.77066
3834.09 2.53411 1.15337
3836.98 2.61217 4.16133
3839.87 7.14347 9.56753
3842.75 3.19969 3.12757
3845.64 2.88694 3.74565
3848.53 -2.2423 -3.54666
3851.42 2.36844 1.85934
3854.31 4.08815 3.92007
3857.2 3.151 1.63797
3860.09 3.38849 4.46283
3862.98 3.72697 3.71021
3865.87 3.7054 1.94488
3868.76 1.23796 2.68305
3871.64 3.32203 1.57038
3874.53 6.57984 7.77817
3877.42 0.165647 -1.71438
3880.31 1.33305 2.11373
3883.2 2.85508 5.47231
3886.09 1.57457 2.75618
3888.98 2.98936 1.50795
3891.87 0.330518 1.79963
3894.76 1.95336 1.65328
3897.65 3.09859 4.61309
3900.54 5.02181 5.47601
3903.43 3.11048 5.30936
3906.32 3.09509 3.17879
3909.21 2.56384 3.30775
3912.1 2.49274 3.72995
3914.99 -0.903081 -0.566324
3917.88 4.06194 5.6658
3920.77 2.25772 3.35268
3923.66 2.60641 2.68105
3926.55 -0.0528947 0.99541
3929.44 0.739766 1.01113
3932.33 0.0747991 2.30661
3935.22 0.0109213 -1.4329
3938.11 -1.33973 -3.00907
3941 2.66198 4.48696
3943.89 3.78003 6.19288
3946.78 5.00581 6.17646
3949.67 6.99716 8.46396
3952.56 4.88031 6.66043
3955.45 5.16995 8.00873
3958.34 3.08678 2.33253
3961.23 5.0651 3.45868
3964.13 9.05783 7.9155
3967.02 7.75341 7.51728
3969.91 4.99417 5.11817
3972.8 6.13181 6.0614
3975.69 4.76798 7.16792
3978.58 7.63957 8.7368
3981.47 4.57813 6.18688
3984.36 7.02475 7.32696
3987.25 4.31145 7.8545
3990.14 6.38582 5.56497
3993.03 5.69651 6.13797
3995.93 4.50624 4.75463
3998.82 6.87428 9.36108
4001.71 3.24643 4.56644
4004.6 7.12538 9.5759
4007.49 6.77845 6.66973
4010.38 4.62418 3.2035
4013.27 4.49295 5.18679
4016.16 5.42762 5.0714
4019.06 4.75807 5.33642
4021.95 6.89407 8.72823
4024.84 4.35411 4.98064
4027.73 5.10269 4.99819
4030.62 7.17367 5.80731
4033.51 6.69955 9.20904
4036.4 9.60116 9.36307
4039.3 4.91761 7.6183
4042.19 7.58707 6.98242
4045.08 8.07559 8.53292
4047.97 8.62395 5.30072
4050.86 11.194 8.09758
4053.75 8.82986 7.43301
4056.65 11.7163 12.4636
4059.54 10.5587 9.97011
4062.43 11.3146 9.62303
4065.32 9.70324 8.90329
4068.21 8.7651 8.34747
4071.11 11.1554 11.2632
4074 10.0579 10.0669
4076.89 7.94308 9.77764
4079.78 10.1313 10.9054
4082.67 8.40789 6.19886
4085.57 7.85481 9.4472
4088.46 5.66852 7.32415
4091.35 7.16574 8.3574
4094.24 4.63926 4.9219
4097.14 7.69677 5.91279
4100.03 6.26974 5.76782
4102.92 6.68697 6.92724
4105.81 5.17691 5.12215
4108.71 7.55846 8.12982
4111.6 6.33762 7.16585
4114.49 9.09567 8.79132
4117.38 6.84358 8.44462
4120.28 6.87683 6.02502
4123.17 5.36454 2.82295
4126.06 7.99896 6.25905
4128.95 6.46809 5.55933
4131.85 4.98182 4.48601
4134.74 6.21152 5.20958
4137.63 6.44 7.86173
4140.52 5.21294 5.32929
4143.42 8.04369 7.36066
4146.31 5.85789 6.09254
4149.2 6.66528 6.6777
4152.09 6.06566 5.43673
4154.99 7.08517 4.28959
4157.88 9.17762 6.29773
4160.77 8.04346 8.26105
4163.67 7.82257 9.15781
4166.56 7.77431 7.64908
4169.45 7.89723 8.8616
4172.34 6.35262 6.27258
4175.24 5.93921 5.87123
4178.13 7.49358 6.98198
4181.02 4.29889 5.14595
4183.92 5.12254 3.95379
4186.81 1.45374 2.20872
4189.7 0.761665 1.08496
4192.6 0.519972 1.09083
4195.49 2.19195 2.2103
4198.38 3.12133 3.79774
4201.28 4.2306 4.49258
4204.17 7.16772 6.27326
4207.06 4.3982 2.089
4209.96 5.42217 2.41957
4212.85 4.75563 3.18032
4215.74 1.57869 1.31287
4218.64 5.41687 5.3715
4221.53 5.21403 7.33134
4224.42 5.54639 5.76034
4227.32 5.9372 6.13016
4230.21 3.58621 4.43613
4233.1 4.86392 5.86055
4236 3.40705 3.26139
4238.89 5.87275 5.12996
4241.78 6.68922 7.02789
4244.68 4.44015 3.08812
4247.57 3.93867 2.91735
4250.46 5.35148 4.55781
4253.36 4.10061 1.31634
4256.25 3.58282 3.21429
4259.14 5.34443 5.42547
4262.04 5.04116 7.24243
4264.93 4.05729 5.37369
4267.82 3.76024 3.10033
4270.72 4.78697 5.75
4273.61 4.50761 5.66138
4276.51 3.68605 4.47594
4279.4 4.24774 5.52584
4282.29 3.52002 3.24553
4285.19 5.49488 4.60179
4288.08 4.72899 6.22685
4290.97 4.81563 4.71975
4293.87 1.78479 2.10304
4296.76 2.04971 1.55221
4299.66 4.95219 4.1972
4302.55 4.53221 4.87664
4305.44 4.14052 3.98029
4308.34 5.04777 4.34195
4311.23 4.30382 4.30405
4314.13 5.26068 3.78849
4317.02 7.07122 5.91417
4319.91 5.3567 4.64433
4322.81 6.45594 5.74861
4325.7 5.08718 5.21961
4328.59 6.11287 5.12799
4331.49 7.54127 5.01732
4334.38 5.76628 4.85275
4337.28 5.24118 3.39066
4340.17 5.01378 4.2612
4343.06 3.41768 3.0558
4345.96 4.55075 5.16836
4348.85 4.33971 4.48867
4351.75 6.22076 6.27201
4354.64 4.74395 4.76217
4357.54 4.81267 5.0773
4360.43 3.68401 5.01227
4363.32 4.33743 5.76984
4366.22 4.15492 5.39631
4369.11 4.55297 4.29918
4372.01 3.07695 2.90751
4374.9 5.05684 5.57383
4377.79 4.25573 4.66247
4380.69 4.08436 4.22408
4383.58 6.96624 8.04396
4386.48 3.77757 5.36513
4389.37 5.08301 5.97277
4392.26 3.39019 3.80205
4395.16 2.63227 2.88164
4398.05 3.6475 3.04697
4400.95 2.93187 2.80752
4403.84 5.72117 5.39133
4406.74 3.51121 2.74551
4409.63 6.38773 6.07609
4412.52 3.03172 4.09934
4415.42 3.4383 4.31816
4418.31 3.49945 5.58093
4421.21 3.82782 4.87052
4424.1 4.19334 4.13924
4427 3.46286 3.18882
4429.89 6.17963 6.08834
4432.78 3.7659 4.11752
4435.68 5.22726 6.23701
4438.57 3.28713 4.65856
4441.47 2.40663 1.92111
4444.36 2.70463 4.8222
4447.26 3.83939 4.06971
4450.15 4.21156 4.25792
4453.04 3.76875 3.04726
4455.94 6.89487 7.43921
4458.83 4.62156 5.46799
4461.73 3.82481 4.51916
4464.62 5.22314 6.98011
4467.52 5.01463 5.29995
4470.41 4.04584 2.87317
4473.3 3.79999 5.10458
4476.2 4.9421 5.76623
4479.09 5.66078 6.49846
4481.99 3.28381 4.93077
4484.88 4.24564 4.39197
4487.78 3.80246 5.48877
4490.67 3.18029 3.85129
4493.56 3.87864 4.09441
4496.46 3.8868 3.92569
4499.35 2.16668 2.34372
4502.25 6.31986 7.82673
4505.14 3.36771 4.90818
4508.04 4.90841 5.16119
4510.93 3.57847 5.04065
4513.82 4.26536 4.51659
4516.72 3.44039 3.93801
4519.61 3.53741 3.67215
4522.51 2.82719 4.44621
4525.4 3.28953 4.26098
4528.3 4.03745 4.42764
4531.19 4.43707 5.63154
4534.08 5.31036 5.77075
4536.98 4.77517 5.99108
4539.87 5.77466 5.32313
4542.77 5.71204 6.37487
4545.66 6.13502 5.65598
4548.56 6.09594 6.46243
4551.45 7.2513 7.87966
4554.34 6.31252 5.98497
4557.24 6.95253 7.45567
4560.13 5.67035 6.13589
4563.03 6.72097 7.43569
4565.92 7.14754 7.21438
4568.82 7.9182 7.30972
4571.71 1.96331 2.14087
4574.6 1.87929 0.767795
4577.5 2.47859 2.71865
4580.39 4.83144 5.73793
4583.29 7.73965 8.72024
4586.18 6.32765 6.36947
4589.07 7.58796 7.56563
4591.97 6.673 7.20911
4594.86 7.5276 7.56799
4597.76 7.34697 8.09847
4600.65 8.60926 8.26001
4603.55 5.76462 6.37555
4606.44 9.11714 9.30582
4609.33 9.84805 9.61323
4612.23 9.15521 10.4404
4615.12 8.12264 8.36335
4618.02 8.20807 7.62569
4620.91 10.1751 11.9554
4623.8 8.52115 9.23376
4626.7 10.6544 10.192
4629.59 9.97324 10.7228
4632.49 9.23814 9.43161
4635.38 10.3614 10.7502
4638.28 9.6339 9.94816
4641.17 10.7301 10.9652
4644.06 9.97622 10.8717
4646.96 10.3182 10.6243
4649.85 10.3408 10.9422
4652.75 12.1581 12.0511
4655.64 10.4512 10.5673
4658.53 10.6767 12.0484
4661.43 9.36093 9.80921
4664.32 11.577 11.7137
4667.21 12.6393 13.3342
4670.11 11.1043 11.87
4673 12.4674 12.6674
4675.9 10.6958 10.5872
4678.79 13.514 14.8531
4681.68 12.9764 13.4001
4684.58 12.2343 12.2454
4687.47 11.8982 12.1367
4690.37 11.0892 11.736
4693.26 12.1358 11.9956
4696.15 13.5122 13.2718
4699.05 12.2275 12.3734
4701.94 12.0822 13.2173
4704.84 11.536 12.7985
4707.73 12.3559 12.8797
4710.62 10.7086 11.4171
4713.52 10.2963 11.0824
4716.41 12.1086 13.0746
4719.3 12.6545 12.9138
4722.2 11.7076 10.6773
4725.09 11.8519 12.124
4727.98 10.8053 11.2511
4730.88 12.5413 12.9558
4733.77 11.5709 11.7825
4736.67 11.7174 12.0574
4739.56 12.0072 12.384
4742.45 11.1679 11.4082
4745.35 10.2683 9.52699
4748.24 10.5595 10.8587
4751.13 10.408 10.6412
4754.03 8.91445 8.12527
4756.92 11.6867 11.7383
4759.81 8.87009 8.84446
4762.71 11.6892 11.8062
4765.6 12.0536 11.9665
4768.49 10.3235 11.2572
4771.39 10.3304 10.088
4774.28 10.9622 11.0786
4777.17 11.0368 11.3379
4780.07 9.50658 9.5688
4782.96 9.40328 10.3136
4785.85 10.0851 9.95267
4788.75 9.55815 10.0273
4791.64 8.8152 8.17722
4794.53 8.52328 8.8325
4797.43 8.67945 9.51514
4800.32 6.81617 7.02065
4803.21 8.75781 8.4764
4806.11 8.70308 8.65554
4809 7.25008 7.30778
4811.89 8.59908 8.57655
4814.78 8.82147 8.71855
4817.68 8.1886 8.07895
4820.57 9.04264 9.56095
4823.46 8.46453 8.35561
4826.36 7.07228 7.244
4829.25 8.00067 8.18095
4832.14 9.94517 9.61515
4835.04 8.45214 8.07632
4837.93 8.42998 8.51221
4840.82 7.33081 7.50065
4843.71 7.76565 7.81118
4846.61 8.21207 8.21392
4849.5 8.93164 9.9935
4852.39 7.88765 7.83296
4855.28 8.80275 8.91422
4858.18 8.38127 8.92868
4861.07 9.19254 9.49034
4863.96 8.09311 8.65781
4866.86 8.22225 9.0509
4869.75 9.79085 9.39275
4872.64 7.56564 6.95499
4875.53 9.47166 10.469
4878.43 9.53331 8.60952
4881.32 9.52988 9.45075
4884.21 8.72009 8.3857
4887.1 7.70528 8.96535
4890 8.06713 8.84552
4892.89 7.48624 7.61706
4895.78 9.38509 8.87827
4898.67 9.71861 8.83451
4901.56 8.95217 9.37802
4904.46 8.06064 8.71612
4907.35 8.9161 9.21647
4910.24 7.92657 9.28663
4913.13 7.2986 8.04721
4916.03 9.99972 9.34728
4918.92 9.66638 8.89325
4921.81 8.7289 9.25846
4924.7 8.55482 9.21609
4927.59 9.74775 9.49306
4930.49 9.58121 10.5957
4933.38 10.1887 10.4601
4936.27 9.39578 9.80506
4939.16 9.19921 8.92204
4942.05 10.1624 10.0147
4944.94 9.1586 8.9392
4947.84 9.85927 10.9753
4950.73 10.9234 10.5599
4953.62 9.20802 9.50324
4956.51 9.12012 8.8782
4959.4 9.9003 9.78064
4962.3 9.45505 9.63748
4965.19 9.60964 9.00732
4968.08 8.27108 7.21016
4970.97 8.24102 8.4525
4973.86 7.48814 7.34128
4976.75 7.00384 7.33446
4979.64 7.36561 8.44016
4982.54 7.34137 7.8809
4985.43 8.78306 8.54996
4988.32 6.71475 7.19575
4991.21 6.67406 7.60163
4994.1 6.33235 7.46663
4996.99 5.85476 5.99949
4999.88 7.20049 6.88255
5002.77 6.95899 7.14291
5005.67 6.51955 7.55656
5008.56 6.44714 6.63954
5011.45 7.45672 7.36638
5014.34 5.4846 5.97729
5017.23 6.30206 7.18756
5020.12 7.325 7.79157
5023.01 7.90032 7.52008
5025.9 7.26274 7.60893
5028.79 6.20673 5.69676
5031.68 7.26866 7.58738
5034.57 6.58093 7.24136
5037.46 6.30419 6.02537
5040.36 7.46061 7.70522
5043.25 8.6772 8.89451
5046.14 6.57338 6.98545
5049.03 7.89337 8.08285
5051.92 7.66067 7.72181
5054.81 7.89986 7.83163
5057.7 7.86382 7.94638
5060.59 8.05099 6.61926
5063.48 7.75861 7.34488
5066.37 7.76917 6.95668
5069.26 8.33805 7.4528
5072.15 6.8399 6.13784
5075.04 7.50965 7.13858
5077.93 7.20176 6.77779
5080.82 7.689 7.85793
5083.71 7.90999 7.27066
5086.6 7.65801 6.96188
5089.49 5.20763 5.52919
5092.38 6.63657 6.67126
5095.27 7.27124 7.23845
5098.16 7.8764 8.15367
5101.05 6.82716 5.88825
5103.94 5.26428 4.91227
5106.83 7.17303 6.66252
5109.72 7.8244 7.39991
5112.61 7.18596 6.61823
5115.5 7.17491 6.44821
5118.39 4.61848 5.11233
5121.28 6.20061 6.46419
5124.17 6.55855 5.5322
5127.06 5.35805 4.61127
5129.94 6.42959 6.03579
5132.83 6.37526 5.65662
5135.72 7.73897 7.50682
5138.61 7.08484 7.20084
5141.5 7.0736 6.3557
5144.39 6.72639 6.78327
5147.28 6.48154 5.99126
5150.17 6.90799 6.95375
5153.06 6.16435 5.56894
5155.95 6.67054 5.32366
5158.84 8.05071 7.68189
5161.72 7.19946 6.68691
5164.61 6.28899 6.00156
5167.5 7.4938 7.65368
5170.39 6.87408 6.46153
5173.28 6.36874 5.90904
5176.17 6.30905 5.55702
5179.06 7.21488 6.70135
5181.95 7.79615 8.07862
5184.83 8.19994 7.91475
5187.72 8.02233 7.65641
5190.61 7.96347 7.40221
5193.5 7.11084 6.94976
5196.39 8.51953 7.83983
5199.28 8.29418 7.78867
5202.16 5.77304 5.83219
5205.05 7.70894 7.62998
5207.94 7.46769 6.3687
5210.83 7.58435 7.24279
5213.72 9.63964 8.63374
5216.6 7.66714 7.88976
5219.49 8.65595 8.26705
5222.38 7.53006 6.85948
5225.27 7.85152 7.83905
5228.15 8.69862 8.36128
5231.04 7.90303 6.86156
5233.93 8.27751 8.10116
5236.82 7.23435 7.79208
5239.7 8.98412 8.44762
5242.59 9.48285 8.81213
5245.48 9.11321 8.34913
5248.37 7.68567 7.39855
5251.25 9.3838 8.87942
5254.14 9.48211 9.26629
5257.03 8.84489 9.01319
5259.92 10.275 9.51137
5262.8 9.67269 9.15616
5265.69 7.95811 8.45438
5268.58 8.89714 8.10601
5271.46 9.22023 9.14042
5274.35 10.1547 10.0804
5277.24 9.50125 9.57693
5280.12 8.98428 9.01954
5283.01 8.01021 8.54183
5285.9 8.75069 7.97713
5288.78 8.94661 8.7323
5291.67 9.21806 8.42531
5294.56 10.0579 9.1514
5297.44 9.32736 9.11665
5300.33 8.48367 8.44636
5303.22 9.1975 9.28431
5306.1 10.4027 10.0081
5308.99 8.56695 8.64553
5311.87 9.22369 8.891
5314.76 8.56749 7.72574
5317.65 9.51023 8.90833
5320.53 8.98345 8.58883
5323.42 9.71952 9.74644
5326.3 5.93595 8.76291
5329.19 6.5445 8.753
5332.08 6.42921 8.93601
5334.96 6.83184 7.67429
5337.85 7.92657 9.62955
5340.73 7.66824 9.82813
5343.62 7.48573 9.79985
5346.5 7.0756 8.14786
5349.39 6.84657 9.43792
5352.27 7.88267 10.2763
5355.16 7.28891 9.53163
5358.04 6.46847 9.44003
5360.93 7.79645 9.5616
5363.82 8.6152 10.3235
5366.7 6.8927 8.77879
5369.59 7.56149 9.97334
5372.47 7.06853 10.309
5375.35 6.47802 8.89342
5378.24 6.97057 9.36866
5381.12 7.86177 10.0886
5384.01 8.33133 11.0102
5386.89 7.61912 10.1053
5389.78 6.97062 9.70587
5392.66 7.79705 10.3
5395.55 6.83609 9.55502
5398.43 6.74168 8.6448
5401.32 6.74247 8.64895
5404.2 7.04594 8.93247
5407.08 7.49089 9.63322
5409.97 5.98443 7.23768
5412.85 5.67081 8.09662
5415.74 6.05761 8.62181
5418.62 7.73607 9.972
5421.5 6.9418 8.7619
5424.39 5.91959 8.94034
5427.27 6.12304 8.75316
5430.15 6.00783 8.41052
5433.04 6.05302 8.93146
5435.92 6.93719 9.46323
5438.8 6.36006 9.06302
5441.69 4.98589 7.54617
5444.57 5.40687 6.94042
5447.45 6.57965 9.29435
5450.34 5.1062 6.84217
5453.22 5.19594 8.68201
5456.1 6.59622 8.19552
5458.99 5.52873 7.23099
5461.87 5.89808 8.90317
5464.75 5.09923 7.69043
5467.64 5.61928 7.72247
5470.52 5.65125 8.4537
5473.4 6.3367 8.39411
5476.28 5.03525 7.90493
5479.17 6.14714 8.45408
5482.05 5.0429 6.63445
5484.93 6.64935 8.56879
5487.81 6.26786 8.4495
5490.7 5.88559 7.20732
5493.58 6.17307 8.98804
5496.46 5.51921 7.49555
5499.34 6.19593 8.88638
5502.22 5.59872 8.7946
5505.11 6.04309 7.9401
5507.99 6.5224 8.47019
5510.87 5.97354 9.25761
5513.75 5.14479 8.52307
5516.63 6.01299 8.66862
5519.51 6.58969 8.43763
5522.39 7.48582 8.91297
5525.28 6.41356 8.00792
5528.16 6.50326 8.80816
5531.04 6.57816 9.40807
5533.92 6.80082 9.48054
5536.8 6.22621 8.69982
5539.68 5.15861 7.91763
5542.56 5.38112 7.44246
5545.44 7.22157 9.29913
5548.32 5.77892 8.38821
5551.21 6.83546 9.37581
5554.09 4.55969 6.54717
5556.97 6.36483 8.70306
5559.85 6.43829 8.08003
5562.73 6.27266 8.17951
5565.61 5.93795 8.85117
5568.49 6.18426 8.73485
5571.37 5.69018 10.0264
5574.25 6.31745 7.48148
5577.13 8.96028 8.79562
5580.01 6.14954 7.72066
5582.89 6.27806 8.23618
5585.77 5.38937 8.55915
5588.65 5.89272 7.7643
5591.53 3.97022 6.44092
5594.41 4.49887 6.52376
5597.29 5.10872 8.18697
5600.17 4.77133 7.88499
5603.05 4.46243 6.42655
5605.92 5.67793 7.21935
5608.8 5.28633 6.26257
5611.68 4.99566 6.19259
5614.56 4.56808 6.89018
5617.44 4.59582 6.22361
5620.32 5.80918 7.72929
5623.2 4.54728 6.83865
5626.08 6.16487 8.45999
5628.96 5.29469 6.41776
5631.83 4.55028 6.63117
5634.71 4.98693 6.94056
5637.59 5.68809 7.04553
5640.47 6.16345 8.3099
5643.35 5.20294 6.69785
5646.23 5.28818 7.93957
5649.1 5.40786 6.96997
5651.98 5.12493 6.90207
5654.86 4.46265 6.48361
5657.74 5.04113 7.08453
5660.62 5.98136 7.97258
5663.49 5.03941 7.06645
5666.37 4.56738 6.61095
5669.25 5.59553 8.04885
5672.13 5.46912 7.65009
5675 5.03735 7.48344
5677.88 6.51238 8.41717
5680.76 4.68191 7.04702
5683.64 6.35453 8.00185
5686.51 5.87012 7.65881
5689.39 6.04368 8.55585
5692.27 6.58265 9.29475
5695.14 6.18525 8.7595
5698.02 5.52705 8.23951
5700.9 6.64286 8.99061
5703.77 6.11245 8.05757
5706.65 5.83593 7.93218
5709.53 5.9855 7.76184
5712.4 7.71067 9.34959
5715.28 5.809 7.96544
5718.16 6.57082 8.34744
5721.03 7.30877 9.6465
5723.91 6.87604 9.75897
5726.78 5.70446 8.13936
5729.66 6.54818 8.50416
5732.53 6.56722 9.03657
5735.41 7.42758 8.82691
5738.29 6.71482 8.78171
5741.16 6.59772 8.82825
5744.04 6.51651 8.73539
5746.91 6.75669 8.8963
5749.79 5.1142 8.23408
5752.66 6.09305 8.19306
5755.54 6.04366 8.45484
5758.41 5.34159 7.88359
5761.29 6.12634 8.02288
5764.16 4.92965 7.94306
5767.04 7.00067 8.89182
5769.91 6.04058 7.81428
5772.79 6.06467 7.24472
5775.66 5.38576 7.15959
5778.53 6.1743 8.15197
5781.41 5.55585 6.96023
5784.28 5.65382 7.36934
5787.16 5.45508 7.62166
5790.03 5.77022 7.24903
5792.91 5.82178 7.77148
5795.78 5.02106 7.34895
5798.65 6.10743 8.01129
5801.53 5.23947 7.72857
5804.4 5.64309 7.41346
5807.27 5.21135 7.7843
5810.15 5.30737 7.57661
5813.02 6.82126 8.45632
5815.89 6.62557 8.0246
5818.77 5.58078 7.31446
5821.64 5.34825 6.80341
5824.51 5.91323 7.14844
5827.38 6.62376 7.47008
5830.26 5.1225 6.52285
5833.13 5.31528 7.0633
5836 5.25743 6.71026
5838.88 6.14784 7.68595
5841.75 5.59573 6.96341
5844.62 5.30488 6.89305
5847.49 5.39951 7.46756
5850.36 5.29181 6.39438
5853.24 5.71809 6.9364
5856.11 4.74062 6.80657
5858.98 4.6752 6.95083
5861.85 4.73848 7.11059
5864.72 4.95018 7.04333
5867.59 5.84046 7.35077
5870.47 4.7915 6.92125
5873.34 4.94298 6.57867
5876.21 5.72894 7.57782
5879.08 4.39829 6.28582
5881.95 5.05407 6.86117
5884.82 4.65894 6.69667
5887.69 4.3216 5.54257
5890.56 4.20737 6.22675
5893.43 4.31341 6.20054
5896.3 4.36093 4.88793
5899.18 4.37623 6.00087
5902.05 4.66038 5.89495
5904.92 4.29017 5.66658
5907.79 3.93313 4.89599
5910.66 3.79442 5.32723
5913.53 4.0527 5.46446
5916.4 3.7343 4.32239
5919.27 4.77773 6.1121
5922.14 2.68867 3.77437
5925.01 4.53643 5.68137
5927.88 4.63825 6.04371
5930.74 3.8582 5.099
5933.61 3.77343 5.06419
5936.48 3.78333 4.71831
5939.35 4.04622 5.34271
5942.22 4.16489 5.28191
5945.09 4.86095 6.13215
5947.96 3.448 4.91364
5950.83 4.98566 6.16796
5953.7 3.36883 4.98959
5956.56 3.59573 4.75603
5959.43 4.48948 4.88285
5962.3 4.23803 5.3558
5965.17 4.05649 5.04034
5968.04 4.35193 5.64561
5970.91 4.05981 5.24309
5973.77 3.33428 4.54055
5976.64 4.01552 5.09158
5979.51 4.93153 5.18672
5982.38 3.84724 5.86061
5985.24 5.07926 6.14086
5988.11 4.75643 5.87647
5990.98 4.88694 6.00083
5993.85 3.65986 4.75601
5996.71 5.31759 5.77826
5999.58 5.31685 5.58506
6002.45 4.76195 5.67892
6005.31 4.67019 6.17333
6008.18 4.09395 5.15107
6011.05 4.88974 5.66566
6013.91 5.50811 6.53376
6016.78 4.76145 5.68676
6019.65 5.23705 6.68581
6022.51 4.31828 5.55653
6025.38 4.98676 6.2363
6028.25 5.44775 6.72087
6031.11 5.3244 6.35033
6033.98 4.44875 5.2749
6036.84 4.02835 5.5832
6039.71 4.69218 5.71823
6042.57 3.9175 4.78766
6045.44 4.48432 5.61044
6048.3 4.61747 5.20666
6051.17 4.8541 6.09281
6054.04 4.78846 5.39462
6056.9 6.15965 6.86808
6059.76 5.40062 6.40842
6062.63 4.65069 5.8344
6065.49 4.95476 5.57243
6068.36 3.69824 4.41854
6071.22 5.03652 5.86705
6074.09 4.12546 5.06446
6076.95 4.63302 5.51635
6079.82 4.80555 5.52631
6082.68 4.96613 5.84007
6085.54 4.22936 5.24498
6088.41 4.41473 5.64169
6091.27 3.31807 4.48579
6094.13 4.19067 5.21761
6097 3.89527 4.76104
6099.86 4.91295 5.34732
6102.72 4.86225 5.12505
6105.59 4.46048 5.05939
6108.45 4.76266 5.63476
6111.31 4.38467 5.14555
6114.18 4.03962 4.69598
6117.04 4.22248 4.7831
6119.9 4.18027 4.82699
6122.76 4.56213 5.21643
6125.63 4.3112 4.71001
6128.49 3.74085 4.6219
6131.35 4.68384 5.37122
6134.21 4.01722 4.33063
6137.08 4.08509 4.97107
6139.94 3.78364 4.30847
6142.8 3.74895 4.32799
6145.66 3.65295 3.83111
6148.52 4.29936 4.72833
6151.38 3.70512 4.42816
6154.24 4.27273 4.59453
6157.11 3.41245 4.84136
6159.97 4.24737 5.22451
6162.83 3.95625 4.61644
6165.69 4.51477 4.81395
6168.55 4.03038 4.5053
6171.41 3.74688 4.29646
6174.27 3.56238 4.31023
6177.13 3.47198 4.62017
6179.99 4.40599 4.80346
6182.85 3.30115 4.04329
6185.71 4.05207 4.77672
6188.57 3.94542 4.54931
6191.43 3.49923 4.34678
6194.29 3.42202 4.32174
6197.15 2.98338 3.67594
6200.01 3.67612 3.88874
6202.87 3.34806 3.7284
6205.73 3.4212 3.8365
6208.59 2.87523 3.71713
6211.45 4.16266 4.50104
6214.3 3.41647 4.12057
6217.16 3.23542 3.75182
6220.02 3.3126 3.58484
6222.88 2.23156 3.14823
6225.74 3.072 3.59591
6228.6 2.85161 3.55961
6231.46 2.62057 3.06873
6234.31 2.00869 2.67676
6237.17 2.92237 3.63304
6240.03 1.77721 2.5052
6242.89 1.82303 1.98459
6245.74 2.44196 2.6953
6248.6 2.4816 2.76077
6251.46 2.35618 3.01651
6254.32 1.53565 2.36128
6257.17 1.26458 1.44548
6260.03 2.10228 2.38309
6262.89 1.88225 2.12825
6265.74 1.93708 2.1585
6268.6 2.17486 2.13561
6271.46 1.77991 2.12765
6274.31 0.923251 1.40256
6277.17 1.72098 2.22471
6280.03 1.28991 1.78775
6282.88 1.93759 2.39943
6285.74 1.2682 1.46185
6288.59 1.28278 1.41152
6291.45 1.80497 1.42057
6294.31 0.417613 1.18494
6297.16 1.05233 1.12708
6300.02 2.3286 2.42485
6302.87 0.887767 1.38213
6305.73 0.826875 1.26308
6308.58 0.313703 0.837219
6311.44 1.93149 1.94892
6314.29 2.25596 2.2338
6317.15 1.39417 1.59193
6320 1.06624 1.34143
6322.86 1.77097 2.23701
6325.71 0.645976 0.9357
6328.56 1.74806 2.22127
6331.42 1.29434 1.92432
6334.27 1.4603 1.33557
6337.13 1.666 1.67561
6339.98 1.88447 2.06925
6342.83 1.26903 1.64857
6345.69 1.34787 1.6314
6348.54 1.83422 2.05717
6351.39 2.4999 2.91117
6354.24 1.25327 1.5
6357.1 2.29942 2.28708
6359.95 1.6239 1.96468
6362.8 1.67342 1.62208
6365.66 0.803859 1.42474
6368.51 2.33807 2.16878
6371.36 1.81272 2.08374
6374.21 2.23283 2.16439
6377.06 2.05467 1.89344
6379.92 0.971003 1.25007
6382.77 1.05216 1.16637
6385.62 1.78483 1.77806
6388.47 1.82834 2.1036
6391.32 1.69467 1.6367
6394.17 2.08601 2.35021
6397.03 1.19435 1.489
6399.88 0.518654 0.687222
6402.73 0.141926 0.361713
6405.58 0.479488 0.536288
6408.43 1.37987 1.41788
6411.28 2.23167 2.56412
6414.13 0.994881 1.63764
6416.98 1.93532 2.18326
6419.83 1.54587 1.98956
6422.68 1.82981 2.33097
6425.53 2.17622 2.1633
6428.38 1.68725 2.14883
6431.23 1.43084 1.81544
6434.08 1.60162 1.73013
6436.93 2.04128 2.23318
6439.78 2.11441 2.28558
6442.63 2.50569 2.5095
6445.48 2.63656 2.77476
6448.32 2.0278 2.29133
6451.17 2.10262 2.54409
6454.02 1.6567 2.08521
6456.87 1.47281 1.64639
6459.72 2.115 2.08155
6462.57 1.63119 2.18394
6465.41 1.34951 1.60094
6468.26 1.7407 2.08683
6471.11 2.14667 2.23029
6473.96 2.26662 2.23795
6476.8 2.24 2.31864
6479.65 1.46264 1.83391
6482.5 2.10711 2.38684
6485.35 1.70919 1.93124
6488.19 1.11465 1.09705
6491.04 1.8629 2.11301
6493.89 2.18603 2.4429
6496.73 1.91828 1.89472
6499.58 2.28613 2.36243
6502.43 1.88929 1.77839
6505.27 1.98301 2.26958
6508.12 1.78371 1.93372
6510.97 1.8461 2.56901
6513.81 1.96804 1.97181
6516.66 1.9536 1.95176
6519.5 1.99356 2.15876
6522.35 1.53374 1.67125
6525.19 1.59733 1.88591
6528.04 1.78684 1.85038
6530.88 1.81206 1.98528
6533.73 1.23043 1.28198
6536.57 2.2418 2.05123
6539.42 1.49918 1.64893
6542.26 0.895436 1.33502
6545.11 1.68042 1.51262
6547.95 1.22464 1.34683
6550.79 1.41291 1.80277
6553.64 1.08279 1.35532
6556.48 1.55994 1.43694
6559.33 1.77784 1.61153
6562.17 1.47406 1.66933
6565.01 1.80964 1.83141
6567.86 1.61435 1.78901
6570.7 0.91014 1.12775
6573.54 1.48359 1.73172
6576.38 0.70052 1.02598
6579.23 0.994827 1.02759
6582.07 1.63556 1.79194
6584.91 1.71608 1.8718
6587.75 1.30536 1.5331
6590.6 0.896022 1.19066
6593.44 0.63887 0.810584
6596.28 0.722803 0.885562
6599.12 0.600024 0.799117
6601.96 1.63145 1.63492
6604.81 1.76227 1.8882
6607.65 1.35655 1.50208
6610.49 1.55787 1.78565
6613.33 1.2687 1.25688
6616.17 1.57216 1.40203
6619.01 1.24636 1.47252
6621.85 1.48291 1.62504
6624.69 1.3149 1.22597
6627.53 1.6152 1.41125
6630.37 1.17787 1.31532
6633.21 1.27482 1.46022
6636.05 0.982057 1.29096
6638.89 1.40409 1.42147
6641.73 1.09548 0.979861
6644.57 1.31742 1.10247
6647.41 0.836379 0.803185
6650.25 0.849692 0.838256
6653.09 1.2634 1.40819
6655.93 1.29063 1.24845
6658.77 0.879644 0.861201
6661.6 1.22016 1.1766
6664.44 0.743307 0.772224
6667.28 1.00084 1.25727
6670.12 1.33417 1.62407
6672.96 0.995456 0.949934
6675.8 0.609552 0.924451
6678.63 0.77645 1.07934
6681.47 1.03721 1.34209
6684.31 0.668603 1.08334
6687.15 1.11661 1.15689
6689.98 0.715434 0.550977
6692.82 1.04116 0.967159
6695.66 1.29865 1.32855
6698.49 1.04097 1.25094
6701.33 0.766022 0.84075
6704.17 0.66271 1.53186
6707 0.810574 1.15817
6709.84 0.662585 0.91403
6712.68 0.513504 0.86012
6715.51 0.414595 0.592591
6718.35 0.917883 1.21458
6721.18 0.475641 0.920949
6724.02 0.858397 0.943999
6726.85 0.467001 0.86109
6729.69 0.654875 0.968687
6732.52 0.854205 0.951899
6735.36 0.742777 0.615836
6738.19 1.17359 1.20446
6741.03 0.793961 0.932948
6743.86 0.441819 0.62797
6746.7 0.298174 0.468591
6749.53 0.480885 0.980915
6752.36 0.299616 0.580598
6755.2 0.452505 0.550224
6758.03 0.804646 1.27811
6760.87 0.0276515 0.656524
6763.7 0.277523 0.664246
6766.53 0.589534 0.463198
6769.37 0.354279 0.490702
6772.2 0.511793 0.640519
6775.03 0.728215 0.476473
6777.86 0.771451 0.669695
6780.7 0.63318 0.639337
6783.53 0.541406 0.549334
6786.36 0.330388 0.348239
6789.19 0.35866 1.03967
6792.03 0.385017 0.561995
6794.86 0.640715 0.949296
6797.69 0.0150181 0.435926
6800.52 0.472114 0.743333
6803.35 0.492849 0.646811
6806.18 0.379135 0.600117
6809.01 0.295462 0.400111
6811.84 0.0399202 0.392656
6814.68 0.173472 0.197033
6817.51 -0.087659 0.0984378
6820.34 0.192186 0.272478
6823.17 0.409259 0.290488
6826 0.29582 0.240035
6828.83 0.404174 0.589624
6831.66 0.886117 0.778729
6834.49 0.154073 -0.259362
6837.32 -0.159223 0.0578702
6840.14 -0.0163211 0.0142268
6842.97 -0.0491025 0.254341
6845.8 0.331215 0.487212
6848.63 0.437392 0.840529
6851.46 0.937615 0.653333
6854.29 0.282423 0.547138
6857.12 0.441731 0.478174
6859.95 0.730029 0.394265
6862.77 0.62847 0.467219
6865.6 0.213137 0.468012
6868.43 -0.012783 0.218361
6871.26 0.0196465 0.188688
6874.08 0.289343 0.31276
6876.91 0.0274798 0.039147
6879.74 0.257348 0.348127
6882.57 -0.018484 0.294673
6885.39 0.181443 0.398358
6888.22 0.168423 0.0608297
6891.05 0.540301 0.237651
6893.87 0.332235 0.752
6896.7 0.597616 0.372499
6899.53 -0.0812777 0.358266
6902.35 0.11789 0.316483
6905.18 0.15516 0.363692
6908 0.456365 0.539664
6910.83 0.658686 0.220985
6913.65 0.336409 0.465165
6916.48 0.707043 0.516193
6919.3 0.393243 0.490339
6922.13 0.486445 0.430614
6924.95 0.201136 0.617917
6927.78 0.430313 0.393244
6930.6 0.429271 0.546432
6933.43 0.288787 0.558699
6936.25 0.551044 0.387956
6939.07 0.48441 0.181828
6941.9 0.536292 0.0915635
6944.72 0.420222 -0.218514
6947.55 0.0325768 -0.0881536
6950.37 -0.063649 0.210009
6953.19 0.2179 -0.0936721
6956.01 0.127966 -0.0958855
6958.84 0.338773 0.165029
6961.66 0.437377 0.399795
6964.48 0.195029 0.266965
6967.3 0.227671 0.228635
6970.13 0.0201759 0.00731191
6972.95 -0.274126 -0.205283
6975.77 -0.134259 0.103977
6978.59 -0.463713 -0.0978728
6981.41 0.238521 0.590843
6984.24 0.55531 0.275339
6987.06 0.231946 0.0364703
6989.88 0.0693063 0.205759
6992.7 0.321996 0.193146
6995.52 0.315344 0.529385
6998.34 0.088753 -0.102452
7001.16 0.221895 0.281717
7003.98 0.0932865 0.144536
7006.8 0.354976 0.557429
7009.62 0.316109 0.2795
7012.44 0.237793 0.301005
7015.26 0.462136 0.631122
7018.08 0.574863 0.0961389
7020.9 0.45463 0.266685
7023.72 0.0102335 0.217712
7026.54 0.551753 0.356378
7029.35 0.0819682 0.232532
7032.17 0.106347 0.179747
7034.99 0.176224 0.353099
7037.81 0.104898 0.559481
7040.63 -0.0177209 0.121097
7043.45 -0.0091736 0.299461
7046.26 0.182238 0.285779
7049.08 -0.0186925 0.0377277
7051.9 0.236322 0.321613
7054.72 0.11407 0.172729
7057.53 0.47902 0.628742
7060.35 0.214298 -0.0812457
7063.17 -0.291864 -0.107628
7065.98 0.152191 -0.0725365
7068.8 -0.0676191 0.113859
7071.62 0.0224634 0.0580383
7074.43 -0.334987 -0.392195
7077.25 0.354414 0.447903
7080.06 0.157344 0.124823
7082.88 0.320304 0.255949
7085.7 0.27379 0.0924548
7088.51 0.0497341 -0.393659
7091.33 0.00768551 0.231007
7094.14 0.506263 0.288251
7096.96 -0.0641697 0.0502389
7099.77 0.128012 -0.0964579
7102.58 0.190117 0.151409
7105.4 -0.15688 -0.0554548
7108.21 -0.122823 -0.173407
7111.03 -0.0509634 -0.0198466
7113.84 0.184673 0.164034
7116.65 0.379789 0.110567
7119.47 -0.0547193 0.0936755
7122.28 0.160495 -0.0339994
7125.09 0.096748 -0.0895801
7127.91 -0.175813 0.180425
7130.72 -0.0321189 -0.103968
7133.53 0.0980577 0.347181
7136.34 0.141767 0.217774
7139.16 0.181933 -0.0822684
7141.97 0.179269 0.347558
7144.78 0.186496 0.0764853
7147.59 0.337278 0.403917
7150.4 0.403082 0.144459
7153.22 0.0230971 0.183421
7156.03 -0.0898198 0.245184
7158.84 0.44536 0.185459
7161.65 0.268623 0.181148
7164.46 0.0256564 0.078514
7167.27 0.238872 0.456262
7170.08 0.259842 0.39873
7172.89 0.285362 -0.0178692
7175.7 -0.159409 0.0418269
7178.51 0.399179 0.437634
7181.32 0.337986 0.110978
7184.13 0.0853363 0.0717272
7186.94 0.143484 0.122412
7189.75 -0.196498 -0.192872
7192.56 0.0644504 0.0770064
7195.37 0.0745753 -0.267074
7198.18 -0.288856 0.229181
7200.98 -0.111295 0.0398131
7203.79 -0.0264503 0.0888189
7206.6 -0.342661 0.0923512
7209.41 0.0950675 -0.0375919
7212.22 0.0229301 -0.0101925
7215.02 0.0273017 -0.0936602
7217.83 0.203573 0.0536023
7220.64 -0.122695 -0.177693
7223.45 0.321976 0.179305
7226.25 0.0880881 0.570054
7229.06 0.149335 0.124564
7231.87 -0.145985 0.276069
7234.67 0.0234026 0.0203361
7237.48 0.21668 0.112791
7240.28 0.34147 -0.0118455
7243.09 0.0924442 -0.111188
7245.9 0.244046 0.103218
7248.7 -0.22076 0.264235
7251.51 -0.0117573 -0.232963
7254.31 -0.0740338 -0.069282
7257.12 -0.352861 0.241546
7259.92 -0.10686 0.00274834
7262.73 0.018969 0.257296
7265.53 0.28546 0.281564
7268.34 0.21883 0.378151
7271.14 0.00966285 -0.147082
7273.94 0.168342 -0.512553
7276.75 -0.384166 0.322358
7279.55 -0.183256 0.168433
7282.35 0.253803 0.206276
7285.16 0.349851 -0.123235
7287.96 0.329132 0.430741
7290.76 0.45117 0.239176
7293.57 -0.136761 0.194886
7296.37 -0.251411 0.292057
7299.17 0.188338 -0.152974
7301.97 0.159809 0.137309
7304.78 0.107527 0.176105
7307.58 -0.329644 0.0616764
7310.38 0.118073 0.115619
7313.18 -0.293002 -0.295517
7315.98 0.258843 0.115531
7318.78 -0.29291 -0.385095
7321.58 -0.202767 0.203947
7324.38 -0.0227525 -0.369817
7327.18 0.555325 -0.0413579
7329.98 -0.0551222 0.236238
7332.79 0.200915 0.265585
7335.59 0.00333377 -0.0963311
7338.38 0.30337 -0.345672
7341.18 0.103529 0.0361954
7343.98 0.00726663 -0.00362076
7346.78 0.293785 0.391307
7349.58 -0.0630903 -0.00685446
7352.38 0.0990704 0.130767
7355.18 -0.144239 0.373794
7357.98 0.0190529 0.139459
7360.78 -0.0815711 -0.217294
7363.58 -0.305274 -0.189183
7366.37 0.0719073 0.0197379
7369.17 0.195133 -0.0429421
7371.97 -0.0719953 -0.639062
7374.77 0.333103 0.0815954
7377.56 -0.0206975 0.084437
7380.36 0.00662561 0.0316127
7383.16 -0.255953 -0.0686392
7385.95 -0.335756 0.140446
7388.75 0.146014 0.180893
7391.55 -0.130651 -0.434083
7394.34 0.10725 0.165083
7397.14 -0.0641837 -0.171135
7399.94 -0.201044 -0.0784583
7402.73 0.0107564 0.266225
7405.53 0.204333 -0.0082999
7408.32 0.206981 0.0274941
7411.12 0.0194395 0.151493
7413.91 -0.208741 0.34168
7416.71 -0.241033 0.146597
7419.5 0.126452 -0.0228589
7422.3 0.408529 0.188245
7425.09 0.300111 0.139223
7427.88 -0.0688454 -0.175532
7430.68 -0.133253 -0.0574686
7433.47 -0.299239 0.0492854
7436.26 0.273927 0.111023
7439.06 -0.113798 -0.151019
7441.85 -0.184714 -0.162897
7444.64 0.157912 -0.0588848
7447.44 0.0763552 0.0695381
7450.23 -0.0399935 0.130563
7453.02 0.0176886 -0.0647744
7455.81 -0.512872 -0.447396
7458.6 0.018805 0.317654
7461.4 0.0100111 0.35243
7464.19 0.270164 0.09076
7466.98 0.0853317 -0.174944
7469.77 0.04091 -0.0385499
7472.56 -0.0712428 0.129277
7475.35 -0.116485 0.153189
7478.14 0.033807 0.282215
7480.93 0.200928 0.215797
7483.72 0.215204 0.301067
7486.51 -0.187891 0.0189343
7489.3 0.029414 -0.00530846
7492.09 0.328268 -0.0583664
7494.88 0.136922 0.187973
7497.67 0.113114 -0.101265
7500.46 0.100273 0.0287026
7503.25 0.225249 -0.198953
7506.04 0.0669546 0.184044
7508.83 -0.151251 0.116327
7511.62 0.195525 0.210655
7514.4 0.0450969 0.148566
7517.19 0.159855 0.0550621
7519.98 -0.215719 -0.0771947
7522.77 0.0212816 0.320743
7525.55 0.350423 0.0690925
7528.34 0.310275 0.272597
7531.13 -0.421095 -0.206757
7533.92 -0.265448 0.14442
7536.7 0.00577675 -0.066179
7539.49 0.00184668 -0.267132
7542.27 0.0150013 -0.230187
7545.06 0.0902018 0.108353
7547.85 0.00583573 -0.0972899
7550.63 -0.288063 -0.0199622
7553.42 0.163526 -0.0133662
7556.2 0.435165 -0.246005
7558.99 0.024625 -0.102528
7561.77 0.134348 -0.056871
7564.56 -0.0606946 0.297173
7567.34 0.23214 0.0296445
7570.13 -0.215756 0.0597651
7572.91 0.0478798 -0.0697826
7575.69 0.0719582 0.224176
7578.48 0.432418 0.0751854
7581.26 -0.0792066 0.256581
7584.05 -0.395791 -0.537708
7586.83 -0.210177 0.140657
7589.61 -0.0448553 0.12814
7592.39 0.179138 0.0887281
7595.18 0.0968261 -0.258701
7597.96 0.283759 0.156945
7600.74 0.264147 0.0586282
7603.52 -0.124736 0.13216
7606.31 0.212855 -0.0954592
7609.09 0.269152 0.153821
7611.87 0.0334232 -0.0860654
7614.65 -0.0959273 0.0596853
7617.43 0.0919518 0.0690435
7620.21 0.262712 0.196329
7622.99 -0.0459218 0.0026782
7625.77 0.121874 0.0819592
7628.55 -0.0380891 0.156461
7631.33 0.193489 -0.0939997
7634.11 0.144128 -0.0868881
7636.89 -0.109185 0.291948
7639.67 -0.0157369 -0.0974859
7642.45 0.0987692 -0.23735
7645.23 0.141495 0.28732
7648.01 -0.0576242 -0.0729451
7650.79 -0.000131835 -0.147393
7653.57 0.207567 0.0292236
7656.34 0.250927 0.359323
7659.12 0.134359 0.118181
7661.9 -0.137312 0.0450364
7664.68 0.201476 0.325221
7667.46 -0.335211 -0.14099
7670.23 0.543757 0.843126
7673.01 -0.0452104 0.207987
7675.79 -0.217464 -0.751186
7678.56 0.375102 0.0969359
7681.34 -0.0507147 -0.0028168
7684.12 0.32473 -0.119197
7686.89 -0.310441 -0.35896
7689.67 -0.0362321 0.042792
7692.44 -0.087054 -0.149861
7695.22 0.00582665 0.0616389
7697.99 -0.0568458 -0.261543
7700.77 -0.248532 -0.25094
7703.54 -0.015793 -0.183537
7706.32 -0.0165534 -0.0560281
7709.09 0.0287677 -0.0724546
7711.87 -0.22247 0.00793108
7714.64 0.0740675 0.266486
7717.42 0.0298976 0.0645029
7720.19 0.24808 0.0321558
7722.96 -0.0386603 0.0328464
7725.74 0.222095 0.315537
7728.51 -0.197855 -0.272414
7731.28 0.0987816 -0.0168607
7734.06 0.109021 -0.273654
7736.83 -0.190862 -0.311661
7739.6 0.142679 0.0753067
7742.37 0.349962 -0.120503
7745.14 0.144017 0.00614003
7747.92 0.0914219 -0.32618
7750.69 -0.0685873 -0.199475
7753.46 -0.160448 0.202376
7756.23 0.111175 0.408903
7759 -0.161682 -0.191182
7761.77 -0.350605 -0.390236
7764.54 -0.0934051 -0.15024
7767.31 0.126651 0.267321
7770.08 -0.30719 -0.354512
7772.85 -0.426899 -0.303764
7775.62 -0.211886 -0.15519
7778.39 -0.267751 -0.0455761
7781.16 -0.167316 0.0492576
7783.93 -0.0869485 0.181649
7786.7 -0.392756 -0.0357538
7789.47 -0.203354 -0.167967
7792.24 -0.0785945 0.140253
7795 -0.134091 0.327501
7797.77 -0.217868 -0.249179
7800.54 0.546131 0.041406
7803.31 0.0678776 -0.159843
7806.07 0.096869 -0.202161
7808.84 0.124589 -0.0650908
7811.61 0.0201731 -0.225462
7814.38 -0.0648767 0.108483
7817.14 -0.183457 -0.104887
7819.91 0.257252 0.56504
7822.67 -0.277749 0.0881838
7825.44 0.174067 0.131052
7828.21 -0.412596 -0.373063
7830.97 0.558706 0.302782
7833.74 -0.209383 0.135129
7836.5 0.264859 -0.0333082
7839.27 0.209227 0.139052
7842.03 -0.132461 0.029706
7844.8 0.0286163 -0.197569
7847.56 -0.279689 -0.109642
7850.32 -0.0945374 0.115273
7853.09 -0.00224354 0.2547
7855.85 -0.0572421 -0.185993
7858.62 0.15203 0.334135
7861.38 0.323833 0.0116531
7864.14 -0.319866 -0.439812
7866.9 -0.0728837 -0.318704
7869.67 -0.178613 0.175544
7872.43 -0.0639737 -0.269316
7875.19 0.422246 -0.318
7877.95 -0.148191 -0.0211369
7880.72 0.293547 0.422349
7883.48 -0.029073 -0.224005
7886.24 -0.385121 -0.463822
7889 0.0011166 -0.209549
7891.76 0.0267923 -0.0122782
7894.52 0.285488 -0.0554542
7897.28 -0.10491 -0.0569553
7900.04 -0.311466 -0.350574
7902.8 0.284755 0.485931
7905.56 0.142538 0.0923488
7908.32 0.183695 0.148158
7911.08 -0.120716 -0.0327548
7913.84 -0.0330581 0.117758
7916.6 0.0397097 -0.0489151
7919.36 -0.0876133 -0.406143
7922.12 -0.121532 0.0528229
7924.88 -0.180135 0.06046
7927.63 0.0441139 -0.227668
7930.39 -0.0350795 0.0705013
7933.15 -0.0235882 0.254365
7935.91 -0.626189 -0.166396
7938.67 -0.160316 0.165993
7941.42 -0.0835376 -0.260114
7944.18 -0.203601 -0.00681441
7946.94 0.339345 0.293033
7949.69 -0.0540848 -0.277382
7952.45 0.153295 0.167446
7955.21 -0.16186 -0.0200086
7957.96 0.0520218 0.30597
7960.72 0.396457 -0.0761834
7963.47 0.161373 -0.0941778
7966.23 0.243034 0.184979
7968.98 -0.0312421 -0.275747
7971.74 -0.0110094 0.339484
7974.49 0.245249 -0.201831
7977.25 0.0111819 0.395238
7980 0.129821 -0.167783
7982.75 0.147224 -0.454744
7985.51 -0.156417 -0.0810413
7988.26 -0.497561 -0.361671
7991.02 -0.208042 -0.0944211
7993.77 -0.362031 -0.455752
7996.52 -0.17287 0.1896
7999.27 0.168148 -0.0539363
8002.03 -0.257018 0.471614
8004.78 -0.178717 -0.200703
8007.53 -0.0445338 -0.122402
8010.28 0.199722 -0.415821
8013.03 0.0987792 -0.134141
8015.79 0.195328 0.337711
8018.54 0.100205 -0.133162
8021.29 0.309554 -0.0285821
8024.04 -0.166124 -0.237933
8026.79 0.133962 0.0864723
8029.54 0.277416 0.155163
8032.29 0.301682 0.0548592
8035.04 0.315028 0.0657073
8037.79 0.216708 0.0834773
8040.54 -0.192309 0.160809
8043.29 0.106724 0.168681
8046.04 -0.242158 0.41795
8048.79 -0.122745 -0.0860468
8051.53 0.011189 0.147487
8054.28 -0.0243256 0.0518981
8057.03 0.0519909 0.235874
8059.78 -0.143855 0.106085
8062.53 0.378268 0.258722
8065.27 -0.0917631 0.111051
8068.02 0.122875 -0.374719
8070.77 -0.214758 0.476947
8073.51 -0.426643 -0.113825
8076.26 -0.191207 0.405796
8079.01 0.476692 -0.0998093
8081.75 0.215951 -0.233567
8084.5 0.262491 0.0987673
8087.25 -0.298575 -0.0616095
8089.99 -0.0519797 0.139905
8092.74 0.153372 0.190878
8095.48 0.429978 0.0691962
8098.23 -0.293714 0.0830198
8100.97 0.0844091 0.0705332
8103.71 -0.101574 -0.397512
8106.46 -0.016283 -0.227384
8109.2 0.444286 -0.450733
8111.95 0.522733 0.0574997
8114.69 -0.185383 0.0789319
8117.43 -0.182549 0.388374
8120.18 -0.314985 0.341626
8122.92 -0.10273 0.375164
8125.66 0.122623 -0.350424
8128.4 -0.0543621 -0.224256
8131.15 0.394414 -0.374573
8133.89 -0.00701778 -0.652892
8136.63 0.248589 0.0309799
8139.37 0.351819 -0.222888
8142.11 -0.0200068 -0.472216
8144.85 0.0844643 -0.268287
8147.6 -0.16528 -0.651119
8150.34 -0.284238 -0.0731975
8153.08 0.0532028 0.0831449
8155.82 0.253524 0.569142
8158.56 0.450999 -0.139343
8161.3 -0.0431319 -0.486361
8164.04 0.325209 -0.391116
8166.78 -0.0350121 0.0647129
8169.51 -0.0649158 -0.152268
8172.25 0.323237 0.236034
8174.99 0.264916 0.203691
8177.73 0.15714 -0.507349
8180.47 0.124367 0.311153
8183.21 0.0118964 0.104852
8185.94 -0.132328 0.40759
8188.68 -0.216129 -0.158239
8191.42 0.37067 -0.260501
8194.16 -0.186804 -0.296277
8196.89 -0.286225 -0.599094
8199.63 -0.503969 0.0705911
8202.37 0.376117 0.425159
8205.1 0.00738989 -0.145266
8207.84 0.285615 0.0883591
8210.57 0.292218 0.233705
8213.31 0.294124 0.246494
8216.04 0.906234 0.0915797
8218.78 0.185411 -0.129611
8221.51 0.276728 0.00757683
8224.25 -0.532668 -0.0808955
8226.98 0.79153 0.472525
8229.72 -0.0339854 -0.244013
8232.45 0.242955 -0.0382143
8235.18 -0.0665184 0.471298
8237.92 0.0157804 0.284116
8240.65 0.436594 -0.324811
8243.38 0.178879 -0.101169
8246.12 0.846193 0.610214
8248.85 -0.201827 0.102587
8251.58 0.00473676 0.256558
8254.31 0.2575 -0.183445
8257.05 0.374737 0.181818
8259.78 -0.447695 -0.286016
8262.51 0.848201 0.520852
8265.24 0.040953 -0.157331
8267.97 0.0344541 -0.048406
8270.7 -0.222396 0.177586
8273.43 -0.531717 0.326776
8276.16 -0.122253 0.137681
8278.89 -0.0666495 -0.0821743
8281.62 -0.102884 -0.147928
8284.35 -0.180815 -0.102266
8287.08 -0.195048 -0.290225
8289.81 -0.234779 -0.164143
8292.54 -0.248475 0.725359
8295.27 0.455695 0.333551
8298 -0.26493 0.454534
8300.72 -0.134297 -0.11804
8303.45 -0.544612 0.326672
8306.18 0.434638 -0.135587
8308.91 1.00459 0.261307
8311.64 0.33548 0.347877
8314.36 0.307017 0.335383
8317.09 0.00446358 0.12558
8319.82 -0.434998 0.139533
8322.54 0.140133 0.172716
8325.27 -0.082349 -0.608301
8327.99 0.274556 0.234153
8330.72 0.126845 0.284529
8333.45 0.106074 0.65513
8336.17 0.0412092 -0.428839
8338.9 -0.352725 -0.0690568
8341.62 0.0295101 -0.0457411
8344.34 0.0863347 -0.208368
8347.07 0.410906 -0.0105407
8349.79 0.0607402 -0.3425
8352.52 -0.320382 0.385705
8355.24 -0.057439 0.482689
8357.96 -0.0050567 0.0444448
8360.69 -0.144499 -0.195301
8363.41 -0.119534 0.433905
8366.13 -0.131206 0.0645606
8368.85 0.137932 0.519637
8371.58 0.0911348 0.55679
8374.3 0.34343 -0.256765
8377.02 -0.602128 -0.404115
8379.74 0.149572 0.335821
8382.46 0.636074 0.119684
8385.18 -0.237966 0.460005
8387.9 0.252461 0.315281
8390.63 -0.0575789 -0.421701
8393.35 -0.126783 0.198398
8396.07 -0.553181 -0.347162
8398.79 0.0178942 0.607722
8401.51 -0.0837168 -0.653666
8404.22 -0.0867994 -0.24853
8406.94 -0.334371 -0.643319
8409.66 -0.349517 0.306046
8412.38 -0.0348459 0.29183
8415.1 -0.19879 0.10832
8417.82 0.563734 0.307995
8420.54 0.031107 0.250011
8423.25 -0.182 0.559878
8425.97 -0.321865 -0.553167
8428.69 0.587237 -0.205486
8431.41 -0.130347 0.150117
8434.12 0.11526 -0.155326
8436.84 -0.0273832 0.51505
8439.55 -0.248708 -0.55953
8442.27 -0.197986 0.216688
8444.99 -0.235703 0.0119705
8447.7 0.150515 0.0612717
8450.42 0.504281 0.754631
8453.13 0.0157506 0.380275
8455.85 -0.283989 0.0632342
8458.56 -0.0945072 0.23971
8461.28 -0.179753 -0.174097
8463.99 -0.233994 -0.229815
8466.7 -0.188754 -0.374994
8469.42 -0.568799 -0.490959
8472.13 -0.0512493 -0.548045
8474.85 0.803911 0.203421
8477.56 -0.168815 -0.432986
8480.27 0.118234 -0.280965
8482.98 -0.00781634 -0.0224451
8485.7 -0.104714 -0.135452
8488.41 -0.310162 0.369465
8491.12 -0.0229654 0.27226
8493.83 0.126559 0.9087
8496.54 0.0731086 0.194739
8499.25 0.46024 0.197319
8501.96 0.317054 0.732409
8504.67 0.787976 -0.449469
8507.39 0.158431 1.47572
8510.1 0.188592 0.463918
8512.81 0.362189 0.223902
8515.51 0.137264 -0.025756
8518.22 -0.124168 0.568936
8520.93 -0.0534239 -0.344181
8523.64 -0.00303658 0.106718
8526.35 0.175324 0.756478
8529.06 0.164491 0.648874
8531.77 -0.488652 0.0223204
8534.48 -0.0341681 0.227065
8537.18 0.554096 0.353301
8539.89 0.0361702 0.0650595
8542.6 0.179174 0.881487
8545.3 -0.363712 -0.0337949
8548.01 -0.195218 0.0541276
8550.72 0.0479226 0.0749894
8553.42 -0.132996 -0.0138297
8556.13 0.38901 -0.342272
8558.84 -0.384019 -0.928246
8561.54 -0.212872 -0.203921
8564.25 0.0767814 -0.304365
8566.95 0.18496 0.167997
8569.66 -0.305942 0.110154
8572.36 -0.0223532 0.087046
8575.07 0.151018 0.741305
8577.77 0.649752 0.28754
8580.47 0.556102 0.492492
8583.18 -0.0935605 0.0562892
8585.88 0.423365 -0.0590361
8588.58 0.636136 0.581965
8591.29 -0.253834 -0.478994
8593.99 0.700965 0.479558
8596.69 -0.299542 0.0124687
8599.39 -0.223717 0.283853
8602.1 -0.0729642 -0.579138
8604.8 -0.642978 0.174614
8607.5 -0.397947 0.532861
8610.2 -0.0849739 -0.118611
8612.9 -0.0623738 -0.149778
8615.6 -0.279919 -0.0690957
8618.3 0.566254 0.724913
8621 -0.100354 0.375923
8623.7 -0.438508 -0.431836
8626.4 -0.505995 0.0503353
8629.1 -0.388345 -0.0476429
8631.8 0.372781 0.408717
8634.5 0.787602 -0.0231874
8637.2 -0.116052 0.151702
8639.9 0.434273 0.990347
8642.59 -0.177382 -0.00348691
8645.29 -0.479666 -0.320689
8647.99 -0.00532176 -0.368857
8650.69 0.140083 0.339397
8653.38 0.82262 0.646442
8656.08 -0.166561 0.659989
8658.78 0.225887 0.581591
8661.47 0.136962 0.433641
8664.17 0.125656 -0.475653
8666.87 0.662834 -0.0919272
8669.56 0.308225 0.409745
8672.26 -0.146433 -0.204845
8674.95 -0.076807 -0.3016
8677.65 -0.345776 0.0862421
8680.34 0.161008 -0.397477
8683.04 0.213165 0.0266942
8685.73 0.449282 -0.195883
8688.43 0.0732914 -0.118078
8691.12 0.0344611 -0.0903149
8693.81 -0.41065 -0.0182769
8696.51 -0.0592256 0.0456977
8699.2 -0.174389 -0.928119
8701.89 -0.437866 -0.786862
8704.58 -0.178824 -0.122181
8707.28 -0.070915 -0.400933
8709.97 0.0371097 0.5734
8712.66 -0.0648985 0.342034
8715.35 -0.140457 -0.122304
8718.04 -0.499798 -1.06099
8720.73 0.189552 -0.211717
8723.42 -0.464919 -0.172341
8726.12 0.0997424 -0.0506826
8728.81 0.274841 -0.695469
8731.5 0.0343243 -0.191728
8734.19 -0.401488 -0.365184
8736.87 -0.250627 0.182361
8739.56 -0.0543707 -0.921943
8742.25 0.057231 -0.383253
8744.94 0.494294 -0.177761
8747.63 -0.274141 -0.813863
8750.32 0.394574 -0.558938
8753.01 -0.112675 -0.509843
8755.69 0.398675 -1.12624
8758.38 0.26185 -0.342199
8761.07 0.473479 0.568458
8763.76 -0.162318 -0.331679
8766.44 0.517846 -0.362287
8769.13 0.0559869 -0.1254
8771.82 -0.0554948 -0.141948
8774.5 0.235805 -0.667236
8777.19 0.190794 0.645805
8779.87 0.297342 0.238063
8782.56 0.532749 -0.0361636
8785.24 0.156518 0.501029
8787.93 -0.030115 -0.327357
8790.61 -0.259777 -0.5129
8793.3 -0.329621 0.0599255
8795.98 0.203308 -0.210382
8798.66 0.490722 -0.62559
8801.35 -0.155659 0.0263683
8804.03 -0.03667 0.294676
8806.71 0.457743 -0.702724
8809.4 -0.151994 -0.901278
8812.08 -0.34784 -0.842497
8814.76 0.24532 -0.0626554
8817.44 -0.0946223 -0.258389
8820.12 -0.420103 0.218105
8822.81 -0.252642 0.0991747
8825.49 0.58962 -0.272504
8828.17 -0.196735 0.1412
8830.85 -0.378806 -0.0228881
8833.53 0.0614195 -0.551206
8836.21 -0.205025 -0.617231
8838.89 -0.10533 0.310196
8841.57 0.00548625 -0.00778951
8844.25 -0.51083 0.097566
8846.93 -0.0700657 0.596073
8849.61 0.023901 0.0275281
8852.28 -0.479175 -0.107099
8854.96 -0.726248 -0.260578
8857.64 -0.201007 -0.589376
8860.32 0.0803332 0.0670507
8863 -0.139324 -0.506537
8865.67 -0.248609 0.209473
8868.35 0.160193 0.464073
8871.03 0.307689 -0.463616
8873.7 0.402307 -0.323078
8876.38 0.0635211 0.337227
8879.06 0.587741 -0.220407
8881.73 0.0409547 -0.399855
8884.41 -0.252669 0.207071
8887.08 -0.613862 -1.7142
8889.76 -0.410924 -0.0602791
8892.43 -0.327314 -0.569731
8895.11 -0.193638 0.486924
8897.78 0.113084 -0.203538
8900.46 0.342388 -0.780135
8903.13 0.723726 -0.102559
8905.8 0.128429 -0.0336568
8908.48 0.133818 0.0244508
8911.15 0.145301 0.625776
8913.82 -0.20327 0.00749632
8916.49 -0.303413 -0.664503
8919.17 -0.156947 0.329386
8921.84 0.108687 -0.280888
8924.51 0.250143 -0.462698
8927.18 0.221135 0.153175
8929.85 -0.168783 0.446611
8932.52 -0.134434 -0.0620213
8935.19 -0.284217 0.0449935
8937.87 0.148683 0.551706
8940.54 0.41673 0.104897
8943.21 -0.593007 -0.122232
8945.87 0.0974643 0.411464
8948.54 0.17507 -0.407785
8951.21 -0.473054 -0.017886
8953.88 0.108231 -0.204515
8956.55 -0.686809 -0.267916
8959.22 -0.264288 0.361513
8961.89 -0.282675 -0.295638
8964.55 0.0953609 -0.180332
8967.22 0.0894096 0.328237
8969.89 -0.0871905 -0.374306
8972.56 -0.253456 -0.0839081
8975.22 -0.727044 0.00625087
8977.89 0.13118 0.170444
8980.56 -0.0132741 -0.0433225
8983.22 -0.03976 0.556236
8985.89 0.601139 0.744436
8988.55 0.204034 -0.0685412
8991.22 0.351208 -0.272974
8993.88 0.283952 1.0083
8996.55 0.143025 -0.355404
8999.21 0.0928002 -0.18977
9001.88 -0.449052 0.493616
9004.54 -0.112308 0.235296
9007.2 -0.184631 -0.833357
9009.87 -0.295566 -0.273753
9012.53 0.848686 -0.604618
9015.19 0.279327 -0.217445
9017.86 -0.507075 -0.648289
9020.52 0.481336 0.693286
9023.18 0.0167113 -0.141287
9025.84 -0.0308935 0.294099
9028.5 -0.24534 -0.756646
9031.16 -0.177927 -0.25845
9033.83 -0.601518 -0.677301
9036.49 0.00481585 1.00129
9039.15 0.357381 -0.507212
9041.81 0.258188 -0.54059
9044.47 0.0762761 0.233009
9047.13 -0.141615 -0.107126
9049.79 0.258605 -0.851016
9052.44 -0.0883915 0.790767
9055.1 -0.0472836 0.618526
9057.76 -0.390197 1.21763
9060.42 0.241338 0.594266
9063.08 0.124622 -0.0867492
9065.74 0.0346262 0.283725
9068.39 0.131371 0.427007
9071.05 -0.325743 0.0277076
9073.71 0.714325 0.785702
9076.37 -0.115333 0.200802
9079.02 0.0509538 0.73507
9081.68 -0.136978 0.390394
9084.33 -0.21293 0.730318
9086.99 0.415738 -0.364984
9089.64 0.53836 -0.00301534
9092.3 0.283036 0.429107
9094.95 -0.187057 0.698616
9097.61 0.0621196 -0.580758
9100.26 0.209073 0.767554
9102.92 -0.22054 0.231814
9105.57 -0.143805 0.194357
9108.23 -0.0408694 0.512547
9110.88 0.0325622 0.923289
9113.53 0.103995 -0.0350696
9116.18 -0.236941 0.529071
9118.84 -0.509745 0.860969
9121.49 0.0390049 1.17653
9124.14 0.893831 0.25466
9126.79 0.582776 -0.250958
9129.44 0.0481956 0.0488186
9132.1 1.14481 0.24118
9134.75 0.541429 0.66545
9137.4 -0.113705 2.43493
9140.05 0.514479 0.335143
9142.7 0.0615127 -0.126494
9145.35 0.381747 0.462244
9148 -0.0167822 0.663431
9150.65 0.963717 -1.32728
9153.29 0.656403 -1.00385
9155.94 0.863423 0.258605
9158.59 -0.267039 -0.652365
9161.24 -0.172034 -0.0146887
9163.89 -0.491477 -0.343754
9166.54 0.227263 -0.0711035
9169.18 -0.0711455 -0.0194151
9171.83 -0.657017 0.0185598
9174.48 0.273672 -2.33666
9177.12 -0.324866 0.160046
9179.77 -0.799148 -1.22052
9182.42 -0.951173 3.18524
9185.06 0.790257 -0.448869
9187.71 -0.386726 1.45329
9190.35 -0.987412 2.10778
9193 -0.694304 4.03082
9195.64 -0.279498 -1.38635
9198.29 -1.06456 2.98831
9200.93 -0.879372 -2.31255
9203.57 2.76588 -5.22244
9206.22 -2.13994 1.36918
9208.86 0.0801229 -1.24311
9211.5 2.08072 5.84987
9214.15 -0.226638 0.750227
9216.79 -0.286932 4.82237
9219.43 2.8572 -1.64488
9222.07 -0.249361 4.18073
9224.72 2.17488 2.1285
9227.36 -3.27359 5.75183
9230 4.78161 -1.13283
9232.64 -2.22998 33.6041
9235.28 -0.149898 32.4713
9237.92 -3.6881 -484.145
9240.56 -3.22908 41.102
9243.2 0.280491 2.99274
9245.84 4.10622 9.37657
9248.48 -3.79664 9.71123
9251.12 -1.37454 -13.3365
9253.76 -7.53328 -6.84269
9256.39 15.5787 -4.03644
9259.03 27.6332 -1.69044
9261.67 -40.1974 -7.69846
9264.31 -25.1688 -0.728482
9266.95 13.1582 -2.12189
9269.58 8.06248 0.221038
9272.22 4.74178 -1.45146
9274.86 -6.24299 -0.982045
9277.49 3.50948 -1.15695
9280.13 -0.937066 -1.31007
9282.76 1.60713 -4.82198
9285.4 6.54092 -2.60976
9288.03 2.74962 -0.636494
9290.67 0.349397 -1.15988
9293.3 -0.0637677 -4.05909
9295.94 1.63287 0.407156
9298.57 -4.09704 3.40653
9301.21 0.11332 0.600328
9303.84 2.94348 -2.80776
9306.47 0.917529 -1.29993
9309.11 -0.470991 -2.47665
9311.74 -1.54119 1.16828
9314.37 -0.492863 -0.986102
9317 -0.173676 0.059482
9319.63 0.478287 -0.894277
9322.27 0.608771 0.627765
9324.9 -0.769437 -1.20243
9327.53 -1.52046 -1.15399
9330.16 -0.576738 -0.284726
9332.79 0.434576 -0.0306525
